{
  "resourceType": "Bundle",
  "type": "transaction",
  "entry": [
    {
      "request": {
        "method": "PUT",
        "url": "Organization/FIJI"
      },
      "fullUrl": "Organization/FIJI",
      "resource": {
        "resourceType": "Organization",
        "identifier": [ { "value": "FIJI" } ],
        "id": "FIJI"
      }
    },
    {
      "request": {
        "method": "PUT",
        "url": "Patient/0854193c-d1be-4f56-a606-ffd007bf13e1"
      },
      "fullUrl": "Patient/0854193c-d1be-4f56-a606-ffd007bf13e1",
      "resource": {
        "resourceType": "Patient",
        "address": [
          {
            "city": "Namaka",
            "country": "Fiji",
            "line": [ "100 Votualevu Street" ],
            "state": "Nadi"
          },
          {
            "city": "Nakasi",
            "country": "Fiji",
            "line": [ "Lot 34 Kabi Place" ]
          }
        ],
        "birthDate": "1960-10-25",
        "deceasedBoolean": false,
        "extension": [
          {
            "extension": [
              {
                "url": "ombCategory",
                "valueCoding": {
                  "code": "A",
                  "display": "A (White British)"
                }
              },
              {
                "url": "text",
                "valueString": "A (White British)"
              }
            ],
            "url": "http://hl7.org/fhir/us/core/StructureDefinition/us-core-race"
          },
          {
            "url": "http://hl7.org/fhir/StructureDefinition/patient-religion",
            "valueCodeableConcept": {
              "coding": [
                {
                  "code": "A",
                  "display": "Athiest"
                }
              ]
            }
          }
        ],
        "gender": "male",
        "identifier": [
          {
            "assigner": { "reference": "Organization/FIJI" },
            "type": {
              "coding": [
                {
                  "code": "MR",
                  "system": "http://terminology.hl7.org/CodeSystem/v2-0203"
                }
              ],
              "text": "MRN"
            },
            "value": "ABCD123456"
          }
        ],
        "managingOrganization": { "reference": "Organization/FIJI" },
        "multipleBirthBoolean": false,
        "name": [
          {
            "family": "Fiji",
            "given": [ "Test" ],
            "text": "Test Fiji"
          },
          {
            "family": "Iss",
            "given": [ "Tester" ],
            "prefix": [ "Mr" ],
            "text": "Mr Tester Iss",
            "use": "official"
          }
        ],
        "telecom": [
          {
            "system": "phone",
            "use": "home",
            "value": "+6796720316"
          }
        ],
        "id": "0854193c-d1be-4f56-a606-ffd007bf13e1"
      }
    },
    {
      "request": {
        "method": "PUT",
        "url": "Organization/FIJI"
      },
      "fullUrl": "Organization/FIJI",
      "resource": {
        "resourceType": "Organization",
        "identifier": [ { "value": "FIJI" } ],
        "name": "FIJI",
        "id": "FIJI"
      }
    },
    {
      "request": {
        "method": "POST",
        "url": "Location"
      },
      "fullUrl": "urn:uuid:133124ee-a918-4e19-8029-e2216df2d615",
      "resource": {
        "resourceType": "Location",
        "identifier": [ { "value": "ICU" } ],
        "managingOrganization": { "reference": "Organization/FIJI" },
        "name": "ICU",
        "physicalType": {
          "coding": [
            {
              "code": "wa",
              "display": "Ward",
              "system": "http://terminology.hl7.org/CodeSystem/location-physical-type"
            }
          ]
        }
      }
    },
    {
      "request": {
        "method": "PUT",
        "url": "Practitioner/96aa6537-3642-4321-9768-553da76d2731"
      },
      "fullUrl": "Practitioner/96aa6537-3642-4321-9768-553da76d2731",
      "resource": {
        "resourceType": "Practitioner",
        "extension": [
          {
            "url": "http://intersystems.com/fhir/extn/sda3/lib/code-table-detail-care-provider-description",
            "valueString": "Williams, Jeannette"
          }
        ],
        "identifier": [
          {
            "type": { "coding": [ { "code": "NI" } ] },
            "value": "G1234569"
          }
        ],
        "name": [
          {
            "family": "Williams",
            "given": [ "Jeannette" ],
            "text": "Jeannette Williams"
          }
        ],
        "id": "96aa6537-3642-4321-9768-553da76d2731"
      }
    },
    {
      "request": {
        "method": "POST",
        "url": "Encounter"
      },
      "fullUrl": "urn:uuid:3167133c-8aa5-414a-9db0-67b2cb886ff1",
      "resource": {
        "resourceType": "Encounter",
        "class": { "code": "AMB" },
        "extension": [
          {
            "url": "http://intersystems.com/fhir/extn/sda3/lib/encounter-encounter-type",
            "valueString": "t"
          },
          {
            "url": "http://intersystems.com/fhir/extn/sda3/lib/encounter-entered-at",
            "valueReference": { "reference": "Organization/FIJI" }
          },
          {
            "url": "http://intersystems.com/fhir/extn/sda3/lib/encounter-entered-on",
            "valueDateTime": "2022-10-06T08:24:00+11:00"
          }
        ],
        "hospitalization": {
          "extension": [
            {
              "url": "http://intersystems.com/fhir/extn/sda3/lib/encounter-assigned-ward",
              "valueString": "ICU"
            }
          ]
        },
        "identifier": [
          {
            "type": { "text": "EncounterNumber" },
            "use": "official",
            "value": "2022202620-1"
          }
        ],
        "location": [ { "location": { "reference": "urn:uuid:133124ee-a918-4e19-8029-e2216df2d615" } } ],
        "participant": [
          {
            "individual": { "reference": "urn:uuid:96aa6537-3642-4321-9768-553da76d2731" },
            "type": [
              {
                "coding": [
                  {
                    "code": "CON",
                    "display": "consultant",
                    "system": "http://terminology.hl7.org/CodeSystem/v3-ParticipationType"
                  }
                ]
              }
            ]
          }
        ],
        "period": { "start": "2022-10-06T08:24:00+11:00" },
        "status": "unknown",
        "subject": { "reference": "urn:uuid:0854193c-d1be-4f56-a606-ffd007bf13e1" }
      }
    },
    {
      "request": {
        "method": "PUT",
        "url": "Organization/ICU"
      },
      "fullUrl": "Organization/ICU",
      "resource": {
        "resourceType": "Organization",
        "identifier": [
          {
            "extension": [
              {
                "url": "http://intersystems.com/fhir/extn/sda3/lib/code-table-detail-organization-s-d-a-coding-standard",
                "valueString": "ISS"
              }
            ],
            "value": "ICU"
          }
        ],
        "name": "Intensive Care Unit",
        "id": "ICU"
      }
    },
    {
      "request": {
        "method": "PUT",
        "url": "Practitioner/6968a695-4a09-45dc-b847-a0d50618f652"
      },
      "fullUrl": "Practitioner/6968a695-4a09-45dc-b847-a0d50618f652",
      "resource": {
        "resourceType": "Practitioner",
        "extension": [
          {
            "url": "http://intersystems.com/fhir/extn/sda3/lib/code-table-detail-care-provider-description",
            "valueString": "SIMPSON, VH"
          }
        ],
        "identifier": [
          {
            "extension": [
              {
                "url": "http://intersystems.com/fhir/extn/sda3/lib/code-table-detail-care-provider-s-d-a-coding-standard",
                "valueString": "NI"
              }
            ],
            "value": "G6750600"
          }
        ],
        "name": [
          {
            "family": "SIMPSON",
            "given": [ "VH" ],
            "prefix": [ "Dr" ],
            "text": "Dr VH SIMPSON"
          }
        ],
        "id": "6968a695-4a09-45dc-b847-a0d50618f652"
      }
    },
    {
      "request": {
        "method": "POST",
        "url": "ServiceRequest"
      },
      "fullUrl": "urn:uuid:d81130c7-4bbe-4ec4-a3a1-cccbfff5c58e",
      "resource": {
        "resourceType": "ServiceRequest",
        "category": [
          {
            "coding": [
              {
                "code": "103693007",
                "display": "Diagnostic procedure",
                "system": "http://snomed.info/sct"
              }
            ],
            "text": "Diagnostic procedure"
          }
        ],
        "code": {
          "coding": [
            {
              "code": "55231-5",
              "display": "Lytes Pnl Bld",
              "system": "http://loinc.org"
            }
          ],
          "extension": [
            {
              "url": "http://intersystems.com/fhir/extn/sda3/lib/code-table-translated-prior-codes",
              "valueCodeableConcept": {
                "coding": [
                  {
                    "code": "C0010",
                    "display": "Electrolytes_Fiji",
                    "extension": [
                      {
                        "url": "http://intersystems.com/fhir/extn/sda3/lib/prior-code-code-system",
                        "valueString": "L"
                      }
                    ]
                  }
                ],
                "text": "A"
              }
            }
          ]
        },
        "encounter": { "reference": "urn:uuid:3167133c-8aa5-414a-9db0-67b2cb886ff1" },
        "extension": [
          {
            "url": "http://intersystems.com/fhir/extn/sda3/lib/lab-order-callback-number",
            "valueString": "0161 4808393"
          },
          {
            "url": "http://intersystems.com/fhir/extn/sda3/lib/lab-order-encounter-number",
            "valueString": "2022202620-1"
          },
          {
            "url": "http://intersystems.com/fhir/extn/sda3/lib/lab-order-entered-at",
            "valueReference": { "reference": "Organization/ICU" }
          },
          {
            "url": "http://intersystems.com/fhir/extn/sda3/lib/lab-order-group-id",
            "valueString": "2022202620"
          },
          {
            "url": "http://intersystems.com/fhir/extn/sda3/lib/lab-order-specimen",
            "valueString": "Serum"
          },
          {
            "url": "http://intersystems.com/fhir/extn/sda3/lib/lab-order-specimen-collected-time",
            "valueDateTime": "2022-10-06T08:24:00+11:00"
          },
          {
            "url": "http://intersystems.com/fhir/extn/sda3/lib/lab-order-specimen-received-time",
            "valueDateTime": "2022-10-06T09:29:00+11:00"
          }
        ],
        "identifier": [
          {
            "type": {
              "coding": [
                {
                  "code": "FILL",
                  "display": "Filler Identifier",
                  "system": "http://terminology.hl7.org/CodeSystem/v2-0203"
                }
              ],
              "text": "FillerId"
            },
            "use": "official",
            "value": "22B000024"
          },
          {
            "type": {
              "coding": [
                {
                  "code": "PLAC",
                  "display": "Placer Identifier",
                  "system": "http://terminology.hl7.org/CodeSystem/v2-0203"
                }
              ],
              "text": "PlacerId"
            },
            "use": "official",
            "value": "2022202620-1"
          }
        ],
        "intent": "order",
        "priority": "routine",
        "requester": { "reference": "urn:uuid:6968a695-4a09-45dc-b847-a0d50618f652" },
        "status": "active",
        "subject": { "reference": "urn:uuid:0854193c-d1be-4f56-a606-ffd007bf13e1" }
      }
    },
    {
      "request": {
        "method": "POST",
        "url": "Observation"
      },
      "fullUrl": "urn:uuid:4e635875-fad3-491a-b961-5187b2cfc9b2",
      "resource": {
        "resourceType": "Observation",
        "category": [
          {
            "coding": [
              {
                "code": "laboratory",
                "system": "http://terminology.hl7.org/CodeSystem/observation-category"
              }
            ]
          }
        ],
        "code": {
          "coding": [
            {
              "code": "2947-0",
              "display": "Sodium Bld-sCnc",
              "system": "http://loinc.org"
            }
          ],
          "extension": [
            {
              "url": "http://intersystems.com/fhir/extn/sda3/lib/code-table-detail-lab-test-item-is-numeric",
              "valueBoolean": true
            },
            {
              "url": "http://intersystems.com/fhir/extn/sda3/lib/code-table-detail-lab-test-item-prior-codes",
              "valueCodeableConcept": {
                "coding": [
                  {
                    "code": "C1095",
                    "display": "Sodium",
                    "extension": [
                      {
                        "url": "http://intersystems.com/fhir/extn/sda3/lib/prior-code-code-system",
                        "valueString": "L"
                      }
                    ]
                  }
                ],
                "text": "A"
              }
            }
          ]
        },
        "effectiveDateTime": "2022-10-06T08:24:00+11:00",
        "encounter": { "reference": "urn:uuid:3167133c-8aa5-414a-9db0-67b2cb886ff1" },
        "extension": [
          {
            "url": "http://intersystems.com/fhir/extn/sda3/lib/lab-result-item-observation-value-type",
            "valueString": "NM"
          },
          {
            "url": "http://intersystems.com/fhir/extn/sda3/lib/lab-result-item-sub-id",
            "valueString": "1"
          }
        ],
        "interpretation": [
          {
            "coding": [ { "display": "N" } ],
            "text": "N"
          }
        ],
        "referenceRange": [
          {
            "high": { "value": 144 },
            "low": { "value": 134 },
            "text": "134-144"
          }
        ],
        "status": "final",
        "subject": { "reference": "urn:uuid:0854193c-d1be-4f56-a606-ffd007bf13e1" },
        "valueQuantity": {
          "code": "mmol/L",
          "system": "http://unitsofmeasure.org",
          "unit": "mmol/L",
          "value": 140
        }
      }
    },
    {
      "request": {
        "method": "POST",
        "url": "Observation"
      },
      "fullUrl": "urn:uuid:8df90200-fec9-4f61-8ba0-83c4e124eb00",
      "resource": {
        "resourceType": "Observation",
        "category": [
          {
            "coding": [
              {
                "code": "laboratory",
                "system": "http://terminology.hl7.org/CodeSystem/observation-category"
              }
            ]
          }
        ],
        "code": {
          "coding": [
            {
              "code": "6298-4",
              "display": "Potassium Bld-sCnc",
              "system": "http://loinc.org"
            }
          ],
          "extension": [
            {
              "url": "http://intersystems.com/fhir/extn/sda3/lib/code-table-detail-lab-test-item-is-numeric",
              "valueBoolean": true
            },
            {
              "url": "http://intersystems.com/fhir/extn/sda3/lib/code-table-detail-lab-test-item-prior-codes",
              "valueCodeableConcept": {
                "coding": [
                  {
                    "code": "C1100",
                    "display": "Potassium",
                    "extension": [
                      {
                        "url": "http://intersystems.com/fhir/extn/sda3/lib/prior-code-code-system",
                        "valueString": "L"
                      }
                    ]
                  }
                ],
                "text": "A"
              }
            }
          ]
        },
        "effectiveDateTime": "2022-10-06T08:24:00+11:00",
        "encounter": { "reference": "urn:uuid:3167133c-8aa5-414a-9db0-67b2cb886ff1" },
        "extension": [
          {
            "url": "http://intersystems.com/fhir/extn/sda3/lib/lab-result-item-observation-value-type",
            "valueString": "NM"
          },
          {
            "url": "http://intersystems.com/fhir/extn/sda3/lib/lab-result-item-sub-id",
            "valueString": "2"
          }
        ],
        "interpretation": [
          {
            "coding": [ { "display": "N" } ],
            "text": "N"
          }
        ],
        "referenceRange": [
          {
            "high": { "value": 5.6 },
            "low": { "value": 3.5 },
            "text": "3.5-5.6"
          }
        ],
        "status": "final",
        "subject": { "reference": "urn:uuid:0854193c-d1be-4f56-a606-ffd007bf13e1" },
        "valueQuantity": {
          "code": "mmol/L",
          "system": "http://unitsofmeasure.org",
          "unit": "mmol/L",
          "value": 5.1
        }
      }
    },
    {
      "request": {
        "method": "POST",
        "url": "Observation"
      },
      "fullUrl": "urn:uuid:fb836781-c47e-429a-9bab-19c9ae343cdd",
      "resource": {
        "resourceType": "Observation",
        "category": [
          {
            "coding": [
              {
                "code": "laboratory",
                "system": "http://terminology.hl7.org/CodeSystem/observation-category"
              }
            ]
          }
        ],
        "code": {
          "coding": [
            {
              "code": "2069-3",
              "display": "Chloride Bld-sCnc",
              "system": "http://loinc.org"
            }
          ],
          "extension": [
            {
              "url": "http://intersystems.com/fhir/extn/sda3/lib/code-table-detail-lab-test-item-is-numeric",
              "valueBoolean": true
            },
            {
              "url": "http://intersystems.com/fhir/extn/sda3/lib/code-table-detail-lab-test-item-prior-codes",
              "valueCodeableConcept": {
                "coding": [
                  {
                    "code": "C1105",
                    "display": "Chloride",
                    "extension": [
                      {
                        "url": "http://intersystems.com/fhir/extn/sda3/lib/prior-code-code-system",
                        "valueString": "L"
                      }
                    ]
                  }
                ],
                "text": "A"
              }
            }
          ]
        },
        "effectiveDateTime": "2022-10-06T08:24:00+11:00",
        "encounter": { "reference": "urn:uuid:3167133c-8aa5-414a-9db0-67b2cb886ff1" },
        "extension": [
          {
            "url": "http://intersystems.com/fhir/extn/sda3/lib/lab-result-item-observation-value-type",
            "valueString": "NM"
          },
          {
            "url": "http://intersystems.com/fhir/extn/sda3/lib/lab-result-item-sub-id",
            "valueString": "3"
          }
        ],
        "interpretation": [
          {
            "coding": [ { "display": "N" } ],
            "text": "N"
          }
        ],
        "referenceRange": [
          {
            "high": { "value": 105 },
            "low": { "value": 85 },
            "text": "85-105"
          }
        ],
        "status": "final",
        "subject": { "reference": "urn:uuid:0854193c-d1be-4f56-a606-ffd007bf13e1" },
        "valueQuantity": {
          "code": "mmol/L",
          "system": "http://unitsofmeasure.org",
          "unit": "mmol/L",
          "value": 100
        }
      }
    },
    {
      "request": {
        "method": "POST",
        "url": "Observation"
      },
      "fullUrl": "urn:uuid:de755670-1d2a-49b1-9d8b-b51fbb33b613",
      "resource": {
        "resourceType": "Observation",
        "category": [
          {
            "coding": [
              {
                "code": "laboratory",
                "system": "http://terminology.hl7.org/CodeSystem/observation-category"
              }
            ]
          }
        ],
        "code": {
          "coding": [
            {
              "code": "2345-7",
              "display": "Glucose SerPl-mCnc",
              "system": "http://loinc.org"
            }
          ],
          "extension": [
            {
              "url": "http://intersystems.com/fhir/extn/sda3/lib/code-table-detail-lab-test-item-is-numeric",
              "valueBoolean": true
            },
            {
              "url": "http://intersystems.com/fhir/extn/sda3/lib/code-table-detail-lab-test-item-prior-codes",
              "valueCodeableConcept": {
                "coding": [
                  {
                    "code": "C7000",
                    "display": "Glucose",
                    "extension": [
                      {
                        "url": "http://intersystems.com/fhir/extn/sda3/lib/prior-code-code-system",
                        "valueString": "L"
                      }
                    ]
                  }
                ],
                "text": "A"
              }
            }
          ]
        },
        "effectiveDateTime": "2022-10-06T08:24:00+11:00",
        "encounter": { "reference": "urn:uuid:3167133c-8aa5-414a-9db0-67b2cb886ff1" },
        "extension": [
          {
            "url": "http://intersystems.com/fhir/extn/sda3/lib/lab-result-item-observation-value-type",
            "valueString": "NM"
          },
          {
            "url": "http://intersystems.com/fhir/extn/sda3/lib/lab-result-item-sub-id",
            "valueString": "4"
          }
        ],
        "interpretation": [
          {
            "coding": [ { "display": "H" } ],
            "text": "H"
          }
        ],
        "referenceRange": [
          {
            "high": { "value": 8.5 },
            "low": { "value": 3.4 },
            "text": "3.4-8.5"
          }
        ],
        "status": "final",
        "subject": { "reference": "urn:uuid:0854193c-d1be-4f56-a606-ffd007bf13e1" },
        "valueQuantity": {
          "code": "g/L",
          "system": "http://unitsofmeasure.org",
          "unit": "g/L",
          "value": 8.70
        }
      }
    },
    {
      "request": {
        "method": "POST",
        "url": "Observation"
      },
      "fullUrl": "urn:uuid:98240429-7d25-49a5-9b76-a75c81ee89f7",
      "resource": {
        "resourceType": "Observation",
        "category": [
          {
            "coding": [
              {
                "code": "laboratory",
                "system": "http://terminology.hl7.org/CodeSystem/observation-category"
              }
            ]
          }
        ],
        "code": {
          "coding": [
            {
              "code": "20565-8",
              "display": "CO2 Bld-sCnc",
              "system": "http://loinc.org"
            }
          ],
          "extension": [
            {
              "url": "http://intersystems.com/fhir/extn/sda3/lib/code-table-detail-lab-test-item-is-numeric",
              "valueBoolean": true
            },
            {
              "url": "http://intersystems.com/fhir/extn/sda3/lib/code-table-detail-lab-test-item-prior-codes",
              "valueCodeableConcept": {
                "coding": [
                  {
                    "code": "C1110",
                    "display": "Bicarbonate",
                    "extension": [
                      {
                        "url": "http://intersystems.com/fhir/extn/sda3/lib/prior-code-code-system",
                        "valueString": "L"
                      }
                    ]
                  }
                ],
                "text": "A"
              }
            }
          ]
        },
        "effectiveDateTime": "2022-10-06T08:24:00+11:00",
        "encounter": { "reference": "urn:uuid:3167133c-8aa5-414a-9db0-67b2cb886ff1" },
        "extension": [
          {
            "url": "http://intersystems.com/fhir/extn/sda3/lib/lab-result-item-observation-value-type",
            "valueString": "NM"
          },
          {
            "url": "http://intersystems.com/fhir/extn/sda3/lib/lab-result-item-sub-id",
            "valueString": "5"
          }
        ],
        "interpretation": [
          {
            "coding": [ { "display": "N" } ],
            "text": "N"
          }
        ],
        "referenceRange": [
          {
            "high": { "value": 33 },
            "low": { "value": 23 },
            "text": "23-33"
          }
        ],
        "status": "final",
        "subject": { "reference": "urn:uuid:0854193c-d1be-4f56-a606-ffd007bf13e1" },
        "valueQuantity": {
          "code": "mol/L",
          "system": "http://unitsofmeasure.org",
          "unit": "mol/L",
          "value": 30
        }
      }
    },
    {
      "request": {
        "method": "POST",
        "url": "Observation"
      },
      "fullUrl": "urn:uuid:2608c5b9-8ab0-4f1e-880e-d78c300ab1e7",
      "resource": {
        "resourceType": "Observation",
        "category": [
          {
            "coding": [
              {
                "code": "laboratory",
                "system": "http://terminology.hl7.org/CodeSystem/observation-category"
              }
            ]
          }
        ],
        "code": {
          "coding": [
            {
              "code": "46424-8",
              "display": "Hemolysis Index SerPl-aCnc",
              "system": "http://loinc.org"
            }
          ],
          "extension": [
            {
              "url": "http://intersystems.com/fhir/extn/sda3/lib/code-table-detail-lab-test-item-is-numeric",
              "valueBoolean": true
            },
            {
              "url": "http://intersystems.com/fhir/extn/sda3/lib/code-table-detail-lab-test-item-prior-codes",
              "valueCodeableConcept": {
                "coding": [
                  {
                    "code": "C90000",
                    "display": "Haemolysis Index",
                    "extension": [
                      {
                        "url": "http://intersystems.com/fhir/extn/sda3/lib/prior-code-code-system",
                        "valueString": "L"
                      }
                    ]
                  }
                ],
                "text": "A"
              }
            }
          ]
        },
        "effectiveDateTime": "2022-10-06T08:24:00+11:00",
        "encounter": { "reference": "urn:uuid:3167133c-8aa5-414a-9db0-67b2cb886ff1" },
        "extension": [
          {
            "url": "http://intersystems.com/fhir/extn/sda3/lib/lab-result-item-observation-value-type",
            "valueString": "NM"
          },
          {
            "url": "http://intersystems.com/fhir/extn/sda3/lib/lab-result-item-sub-id",
            "valueString": "6"
          }
        ],
        "status": "final",
        "subject": { "reference": "urn:uuid:0854193c-d1be-4f56-a606-ffd007bf13e1" },
        "valueQuantity": {
          "system": "http://www.intersystems.com/fhir/system",
          "value": 4
        }
      }
    },
    {
      "request": {
        "method": "POST",
        "url": "Observation"
      },
      "fullUrl": "urn:uuid:88ff210f-dd19-42fd-8280-c6b1bd524580",
      "resource": {
        "resourceType": "Observation",
        "category": [
          {
            "coding": [
              {
                "code": "laboratory",
                "system": "http://terminology.hl7.org/CodeSystem/observation-category"
              }
            ]
          }
        ],
        "code": {
          "coding": [
            {
              "code": "46425-5",
              "display": "Lipemic Index SerPl-aCnc",
              "system": "http://loinc.org"
            }
          ],
          "extension": [
            {
              "url": "http://intersystems.com/fhir/extn/sda3/lib/code-table-detail-lab-test-item-is-numeric",
              "valueBoolean": true
            },
            {
              "url": "http://intersystems.com/fhir/extn/sda3/lib/code-table-detail-lab-test-item-prior-codes",
              "valueCodeableConcept": {
                "coding": [
                  {
                    "code": "C90005",
                    "display": "Lipemic Index",
                    "extension": [
                      {
                        "url": "http://intersystems.com/fhir/extn/sda3/lib/prior-code-code-system",
                        "valueString": "L"
                      }
                    ]
                  }
                ],
                "text": "A"
              }
            }
          ]
        },
        "effectiveDateTime": "2022-10-06T08:24:00+11:00",
        "encounter": { "reference": "urn:uuid:3167133c-8aa5-414a-9db0-67b2cb886ff1" },
        "extension": [
          {
            "url": "http://intersystems.com/fhir/extn/sda3/lib/lab-result-item-observation-value-type",
            "valueString": "NM"
          },
          {
            "url": "http://intersystems.com/fhir/extn/sda3/lib/lab-result-item-sub-id",
            "valueString": "7"
          }
        ],
        "status": "final",
        "subject": { "reference": "urn:uuid:0854193c-d1be-4f56-a606-ffd007bf13e1" },
        "valueQuantity": {
          "system": "http://www.intersystems.com/fhir/system",
          "value": 0
        }
      }
    },
    {
      "request": {
        "method": "PUT",
        "url": "Practitioner/c312a16f-dde2-42d6-a7aa-55d86cd77a97"
      },
      "fullUrl": "Practitioner/c312a16f-dde2-42d6-a7aa-55d86cd77a97",
      "resource": {
        "resourceType": "Practitioner",
        "extension": [
          {
            "url": "http://intersystems.com/fhir/extn/sda3/lib/code-table-detail-care-provider-description",
            "valueString": "Strong,  Trevor Francis Mr"
          }
        ],
        "identifier": [ { "value": "8" } ],
        "name": [
          {
            "family": "Strong",
            "given": [ " Trevor Francis Mr" ],
            "text": " Trevor Francis Mr Strong"
          }
        ],
        "id": "c312a16f-dde2-42d6-a7aa-55d86cd77a97"
      }
    },
    {
      "request": {
        "method": "POST",
        "url": "DiagnosticReport"
      },
      "fullUrl": "urn:uuid:be8a4345-a127-4f49-abe0-01da52157abc",
      "resource": {
        "resourceType": "DiagnosticReport",
        "basedOn": [ { "reference": "urn:uuid:d81130c7-4bbe-4ec4-a3a1-cccbfff5c58e" } ],
        "category": [ { "coding": [ { "code": "CH" } ] } ],
        "code": {
          "coding": [
            {
              "code": "55231-5",
              "display": "Lytes Pnl Bld",
              "system": "http://loinc.org"
            }
          ],
          "extension": [
            {
              "url": "http://intersystems.com/fhir/extn/sda3/lib/code-table-translated-prior-codes",
              "valueCodeableConcept": {
                "coding": [
                  {
                    "code": "C0010",
                    "display": "Electrolytes_Fiji",
                    "extension": [
                      {
                        "url": "http://intersystems.com/fhir/extn/sda3/lib/prior-code-code-system",
                        "valueString": "L"
                      }
                    ]
                  }
                ],
                "text": "A"
              }
            }
          ]
        },
        "effectivePeriod": { "start": "2022-10-06T00:00:00+11:00" },
        "encounter": { "reference": "urn:uuid:3167133c-8aa5-414a-9db0-67b2cb886ff1" },
        "identifier": [
          {
            "type": {
              "coding": [
                {
                  "code": "FILL",
                  "display": "Filler Identifier",
                  "system": "http://terminology.hl7.org/CodeSystem/v2-0203"
                }
              ],
              "text": "FillerId"
            },
            "use": "official",
            "value": "22B000024"
          },
          {
            "type": {
              "coding": [
                {
                  "code": "PLAC",
                  "display": "Placer Identifier",
                  "system": "http://terminology.hl7.org/CodeSystem/v2-0203"
                }
              ],
              "text": "PlacerId"
            },
            "use": "official",
            "value": "2022202620-1"
          }
        ],
        "issued": "2022-10-06T09:32:00+11:00",
        "performer": [ { "reference": "urn:uuid:c312a16f-dde2-42d6-a7aa-55d86cd77a97" } ],
        "result": [
          { "reference": "urn:uuid:4e635875-fad3-491a-b961-5187b2cfc9b2" },
          { "reference": "urn:uuid:8df90200-fec9-4f61-8ba0-83c4e124eb00" },
          { "reference": "urn:uuid:fb836781-c47e-429a-9bab-19c9ae343cdd" },
          { "reference": "urn:uuid:de755670-1d2a-49b1-9d8b-b51fbb33b613" },
          { "reference": "urn:uuid:98240429-7d25-49a5-9b76-a75c81ee89f7" },
          { "reference": "urn:uuid:2608c5b9-8ab0-4f1e-880e-d78c300ab1e7" },
          { "reference": "urn:uuid:88ff210f-dd19-42fd-8280-c6b1bd524580" }
        ],
        "status": "final",
        "subject": { "reference": "urn:uuid:0854193c-d1be-4f56-a606-ffd007bf13e1" }
      }
    }
  ]
}